{
  "patients": [
    {
      "id": "18bb2eef-4676-47f7-8fc2-863c4aad3513",
      "name": [
        {
          "family": "Bauch",
          "given": [
            "Dorris"
          ]
        }
      ],
      "resourceType": "Patient"
    },
    {
      "id": "0a85d1e2-d2f7-4fdb-895e-1e7d91fb0511",
      "name": [
        {
          "family": "Gusikowski",
          "given": [
            "Lavada"
          ]
        }
      ],
      "resourceType": "Patient"
    },
    {
      "id": "ccba6c4e-a501-4f4a-a154-6a82fc8e4c86",
      "name": [
        {
          "family": "Sporer",
          "given": [
            "Kiara"
          ]
        }
      ],
      "resourceType": "Patient"
    },
    {
      "id": "70c9ad0c-c17f-4e3e-90df-219e66af1929",
      "name": [
        {
          "family": "Krajcik",
          "given": [
            "Leonardo"
          ]
        }
      ],
      "resourceType": "Patient"
    },
    {
      "id": "250b03e3-6434-4a8c-89fc-070ca73df5cd",
      "name": [
        {
          "family": "Huel",
          "given": [
            "Cordell"
          ]
        }
      ],
      "resourceType": "Patient"
    },
    {
      "id": "973fa710-e165-4872-b0fe-2307e2162393",
      "name": [
        {
          "family": "Bogan",
          "given": [
            "Ruben"
          ]
        }
      ],
      "resourceType": "Patient"
    },
    {
      "id": "512b3c38-38d3-4a58-ae26-937e69ed424f",
      "name": [
        {
          "family": "Satterfield",
          "given": [
            "Rowan"
          ]
        }
      ],
      "resourceType": "Patient"
    },
    {
      "id": "c756e05d-0377-49bb-93ed-31aef9df179f",
      "name": [
        {
          "family": "Herman",
          "given": [
            "Erich"
          ]
        }
      ],
      "resourceType": "Patient"
    },
    {
      "id": "b4d2feea-efe5-44f3-ab6f-e59f29738541",
      "name": [
        {
          "family": "Heidenreich",
          "given": [
            "Kathryn"
          ]
        }
      ],
      "resourceType": "Patient"
    },
    {
      "id": "ce882d3f-5977-45f0-a048-72f27b0b0b49",
      "name": [
        {
          "family": "Murazik",
          "given": [
            "Evan"
          ]
        }
      ],
      "resourceType": "Patient"
    }
  ],
  "episodes": [
    {
      "id": "32e629dc-ecf9-4916-9562-84f462c20c74",
      "resourceType": "EpisodeOfCare",
      "status": "active",
      "patient": {
        "reference": "Patient/18bb2eef-4676-47f7-8fc2-863c4aad3513"
      }
    },
    {
      "id": "dec8cdb2-ba77-4a08-b975-29ddd197047b",
      "resourceType": "EpisodeOfCare",
      "status": "active",
      "patient": {
        "reference": "Patient/18bb2eef-4676-47f7-8fc2-863c4aad3513"
      }
    },
    {
      "id": "02cc827a-2317-4f54-9aaf-3060eda54504",
      "resourceType": "EpisodeOfCare",
      "status": "active",
      "patient": {
        "reference": "Patient/18bb2eef-4676-47f7-8fc2-863c4aad3513"
      }
    },
    {
      "id": "33ce87fb-2945-4bca-afdb-e250626ec2e1",
      "resourceType": "EpisodeOfCare",
      "status": "active",
      "patient": {
        "reference": "Patient/18bb2eef-4676-47f7-8fc2-863c4aad3513"
      }
    },
    {
      "id": "789fc445-9daa-41a5-b87d-399c3f0b071c",
      "resourceType": "EpisodeOfCare",
      "status": "active",
      "patient": {
        "reference": "Patient/18bb2eef-4676-47f7-8fc2-863c4aad3513"
      }
    },
    {
      "id": "05c5fd8e-d4f4-4004-b34f-a2b73844f52b",
      "resourceType": "EpisodeOfCare",
      "status": "active",
      "patient": {
        "reference": "Patient/0a85d1e2-d2f7-4fdb-895e-1e7d91fb0511"
      }
    },
    {
      "id": "f854f651-691e-44e6-a22f-b3b7376803ca",
      "resourceType": "EpisodeOfCare",
      "status": "active",
      "patient": {
        "reference": "Patient/0a85d1e2-d2f7-4fdb-895e-1e7d91fb0511"
      }
    },
    {
      "id": "a721a78b-8c79-4a6b-b132-df7eb551862c",
      "resourceType": "EpisodeOfCare",
      "status": "active",
      "patient": {
        "reference": "Patient/0a85d1e2-d2f7-4fdb-895e-1e7d91fb0511"
      }
    },
    {
      "id": "e53d0e7e-65bb-4ade-a205-44cecebdcb45",
      "resourceType": "EpisodeOfCare",
      "status": "active",
      "patient": {
        "reference": "Patient/0a85d1e2-d2f7-4fdb-895e-1e7d91fb0511"
      }
    },
    {
      "id": "d28e3b1e-6ed6-4e38-990d-ea7589a52191",
      "resourceType": "EpisodeOfCare",
      "status": "active",
      "patient": {
        "reference": "Patient/0a85d1e2-d2f7-4fdb-895e-1e7d91fb0511"
      }
    },
    {
      "id": "16733016-2b29-4786-88a2-f84d1cb9a17b",
      "resourceType": "EpisodeOfCare",
      "status": "active",
      "patient": {
        "reference": "Patient/ccba6c4e-a501-4f4a-a154-6a82fc8e4c86"
      }
    },
    {
      "id": "e7e7fae2-d19f-4a11-a276-b8419ac76bab",
      "resourceType": "EpisodeOfCare",
      "status": "active",
      "patient": {
        "reference": "Patient/ccba6c4e-a501-4f4a-a154-6a82fc8e4c86"
      }
    },
    {
      "id": "277fc36f-aaf9-4806-a361-bc327f218029",
      "resourceType": "EpisodeOfCare",
      "status": "active",
      "patient": {
        "reference": "Patient/ccba6c4e-a501-4f4a-a154-6a82fc8e4c86"
      }
    },
    {
      "id": "556ead38-f8d4-475c-bbca-2d911c56750a",
      "resourceType": "EpisodeOfCare",
      "status": "active",
      "patient": {
        "reference": "Patient/ccba6c4e-a501-4f4a-a154-6a82fc8e4c86"
      }
    },
    {
      "id": "265d243b-b5b2-4e5a-8d84-0fed39837294",
      "resourceType": "EpisodeOfCare",
      "status": "active",
      "patient": {
        "reference": "Patient/ccba6c4e-a501-4f4a-a154-6a82fc8e4c86"
      }
    },
    {
      "id": "cf799083-7ce7-43f5-acaa-1c0751cdefc9",
      "resourceType": "EpisodeOfCare",
      "status": "active",
      "patient": {
        "reference": "Patient/70c9ad0c-c17f-4e3e-90df-219e66af1929"
      }
    },
    {
      "id": "b51b9125-5e09-446a-990c-5671143c3170",
      "resourceType": "EpisodeOfCare",
      "status": "active",
      "patient": {
        "reference": "Patient/70c9ad0c-c17f-4e3e-90df-219e66af1929"
      }
    },
    {
      "id": "536ed1be-2930-487a-acf5-b4050a74d75d",
      "resourceType": "EpisodeOfCare",
      "status": "active",
      "patient": {
        "reference": "Patient/70c9ad0c-c17f-4e3e-90df-219e66af1929"
      }
    },
    {
      "id": "e03fc6c5-dd1c-48b7-ac8e-23cc449018f6",
      "resourceType": "EpisodeOfCare",
      "status": "active",
      "patient": {
        "reference": "Patient/70c9ad0c-c17f-4e3e-90df-219e66af1929"
      }
    },
    {
      "id": "25e22f67-e5c0-47ad-bda9-dcf4cf7e3d80",
      "resourceType": "EpisodeOfCare",
      "status": "active",
      "patient": {
        "reference": "Patient/70c9ad0c-c17f-4e3e-90df-219e66af1929"
      }
    },
    {
      "id": "d80c6313-2fad-4bf9-90b0-0001cbbbb6fc",
      "resourceType": "EpisodeOfCare",
      "status": "active",
      "patient": {
        "reference": "Patient/250b03e3-6434-4a8c-89fc-070ca73df5cd"
      }
    },
    {
      "id": "8ec63b00-e397-41c8-8cb1-712e602633b5",
      "resourceType": "EpisodeOfCare",
      "status": "active",
      "patient": {
        "reference": "Patient/250b03e3-6434-4a8c-89fc-070ca73df5cd"
      }
    },
    {
      "id": "e21cfdb0-c1fb-4709-a5ea-3682fa1b3c04",
      "resourceType": "EpisodeOfCare",
      "status": "active",
      "patient": {
        "reference": "Patient/250b03e3-6434-4a8c-89fc-070ca73df5cd"
      }
    },
    {
      "id": "fecddb9f-274d-46b2-902d-7817f48aed11",
      "resourceType": "EpisodeOfCare",
      "status": "active",
      "patient": {
        "reference": "Patient/250b03e3-6434-4a8c-89fc-070ca73df5cd"
      }
    },
    {
      "id": "3a63e5ca-f58d-4abe-8514-919ea062ff30",
      "resourceType": "EpisodeOfCare",
      "status": "active",
      "patient": {
        "reference": "Patient/250b03e3-6434-4a8c-89fc-070ca73df5cd"
      }
    },
    {
      "id": "c1dd8190-ffac-46f0-b6e0-ec8098362e52",
      "resourceType": "EpisodeOfCare",
      "status": "active",
      "patient": {
        "reference": "Patient/973fa710-e165-4872-b0fe-2307e2162393"
      }
    },
    {
      "id": "d0f9a854-54aa-4c75-b6b7-81415dcf57f0",
      "resourceType": "EpisodeOfCare",
      "status": "active",
      "patient": {
        "reference": "Patient/973fa710-e165-4872-b0fe-2307e2162393"
      }
    },
    {
      "id": "c4924aeb-64c6-49f3-b3b1-e1491b65650a",
      "resourceType": "EpisodeOfCare",
      "status": "active",
      "patient": {
        "reference": "Patient/973fa710-e165-4872-b0fe-2307e2162393"
      }
    },
    {
      "id": "dfa6e8e9-f596-441e-8340-a94c8f04aa94",
      "resourceType": "EpisodeOfCare",
      "status": "active",
      "patient": {
        "reference": "Patient/973fa710-e165-4872-b0fe-2307e2162393"
      }
    },
    {
      "id": "2464727b-114b-42f3-b8f4-9f7f7ced5a15",
      "resourceType": "EpisodeOfCare",
      "status": "active",
      "patient": {
        "reference": "Patient/973fa710-e165-4872-b0fe-2307e2162393"
      }
    },
    {
      "id": "c974d5ff-d60f-4313-8e08-752ad4980ac9",
      "resourceType": "EpisodeOfCare",
      "status": "active",
      "patient": {
        "reference": "Patient/512b3c38-38d3-4a58-ae26-937e69ed424f"
      }
    },
    {
      "id": "d84b10ab-e353-428b-bb2e-b7622dd2f168",
      "resourceType": "EpisodeOfCare",
      "status": "active",
      "patient": {
        "reference": "Patient/512b3c38-38d3-4a58-ae26-937e69ed424f"
      }
    },
    {
      "id": "732c305b-9f00-49a3-90ad-a04c16adf853",
      "resourceType": "EpisodeOfCare",
      "status": "active",
      "patient": {
        "reference": "Patient/512b3c38-38d3-4a58-ae26-937e69ed424f"
      }
    },
    {
      "id": "d265b1a3-f8dd-4cad-8367-1a1cecbc748c",
      "resourceType": "EpisodeOfCare",
      "status": "active",
      "patient": {
        "reference": "Patient/512b3c38-38d3-4a58-ae26-937e69ed424f"
      }
    },
    {
      "id": "89d458db-fcee-4ff8-91f9-b29ea2026b5d",
      "resourceType": "EpisodeOfCare",
      "status": "active",
      "patient": {
        "reference": "Patient/512b3c38-38d3-4a58-ae26-937e69ed424f"
      }
    },
    {
      "id": "dfbbf662-917e-44f5-9193-bb2ee9634822",
      "resourceType": "EpisodeOfCare",
      "status": "active",
      "patient": {
        "reference": "Patient/c756e05d-0377-49bb-93ed-31aef9df179f"
      }
    },
    {
      "id": "67541ccd-d25a-42b9-8f09-e29e74a0791d",
      "resourceType": "EpisodeOfCare",
      "status": "active",
      "patient": {
        "reference": "Patient/c756e05d-0377-49bb-93ed-31aef9df179f"
      }
    },
    {
      "id": "61e39698-eeb9-41c0-b816-9699131e1811",
      "resourceType": "EpisodeOfCare",
      "status": "active",
      "patient": {
        "reference": "Patient/c756e05d-0377-49bb-93ed-31aef9df179f"
      }
    },
    {
      "id": "49f62050-331e-4787-95f4-1a13f6726b6e",
      "resourceType": "EpisodeOfCare",
      "status": "active",
      "patient": {
        "reference": "Patient/c756e05d-0377-49bb-93ed-31aef9df179f"
      }
    },
    {
      "id": "e491a405-cb53-4349-b712-088fe57ae59d",
      "resourceType": "EpisodeOfCare",
      "status": "active",
      "patient": {
        "reference": "Patient/c756e05d-0377-49bb-93ed-31aef9df179f"
      }
    },
    {
      "id": "de6b73af-cd06-4276-bfac-d941cf62bdca",
      "resourceType": "EpisodeOfCare",
      "status": "active",
      "patient": {
        "reference": "Patient/b4d2feea-efe5-44f3-ab6f-e59f29738541"
      }
    },
    {
      "id": "ea742c40-2ae0-46f5-80fb-17981ad299d4",
      "resourceType": "EpisodeOfCare",
      "status": "active",
      "patient": {
        "reference": "Patient/b4d2feea-efe5-44f3-ab6f-e59f29738541"
      }
    },
    {
      "id": "50de2278-211e-4066-9665-b2a4ccd992ee",
      "resourceType": "EpisodeOfCare",
      "status": "active",
      "patient": {
        "reference": "Patient/b4d2feea-efe5-44f3-ab6f-e59f29738541"
      }
    },
    {
      "id": "921da04c-d03b-4538-ac7b-d5c54f3bd337",
      "resourceType": "EpisodeOfCare",
      "status": "active",
      "patient": {
        "reference": "Patient/b4d2feea-efe5-44f3-ab6f-e59f29738541"
      }
    },
    {
      "id": "0eaa9547-e5bb-4495-9d55-3299a033d0de",
      "resourceType": "EpisodeOfCare",
      "status": "active",
      "patient": {
        "reference": "Patient/b4d2feea-efe5-44f3-ab6f-e59f29738541"
      }
    },
    {
      "id": "18b3578c-2b5e-4609-9a1d-3bfc19355579",
      "resourceType": "EpisodeOfCare",
      "status": "active",
      "patient": {
        "reference": "Patient/ce882d3f-5977-45f0-a048-72f27b0b0b49"
      }
    },
    {
      "id": "bf2506c0-77f8-4e38-b25a-977987698728",
      "resourceType": "EpisodeOfCare",
      "status": "active",
      "patient": {
        "reference": "Patient/ce882d3f-5977-45f0-a048-72f27b0b0b49"
      }
    },
    {
      "id": "b90ce156-5bdd-445c-92ca-bbf982719f64",
      "resourceType": "EpisodeOfCare",
      "status": "active",
      "patient": {
        "reference": "Patient/ce882d3f-5977-45f0-a048-72f27b0b0b49"
      }
    },
    {
      "id": "f9d24601-539a-455c-80d5-ec613aa887e5",
      "resourceType": "EpisodeOfCare",
      "status": "active",
      "patient": {
        "reference": "Patient/ce882d3f-5977-45f0-a048-72f27b0b0b49"
      }
    },
    {
      "id": "11adbaa2-5b9f-4c1b-a126-4494791acb10",
      "resourceType": "EpisodeOfCare",
      "status": "active",
      "patient": {
        "reference": "Patient/ce882d3f-5977-45f0-a048-72f27b0b0b49"
      }
    }
  ]
}