{
  "patients": [
    {
      "id": "09bd83f0-d128-4334-b8bd-a2980eda70b4",
      "name": [
        {
          "family": "Hintz",
          "given": [
            "Rosalia"
          ]
        }
      ],
      "resourceType": "Patient"
    },
    {
      "id": "6f5e952e-35d2-4ceb-b37f-2df4fa99d681",
      "name": [
        {
          "family": "Dach",
          "given": [
            "Cyrus"
          ]
        }
      ],
      "resourceType": "Patient"
    },
    {
      "id": "33d79fcd-2a27-4e6d-bfd1-1841f47548ee",
      "name": [
        {
          "family": "Rau-Crooks",
          "given": [
            "Aniya"
          ]
        }
      ],
      "resourceType": "Patient"
    },
    {
      "id": "171019fc-aaac-4904-83d2-676205c73f9a",
      "name": [
        {
          "family": "Witting",
          "given": [
            "Dax"
          ]
        }
      ],
      "resourceType": "Patient"
    },
    {
      "id": "e3e612a4-6ba2-4d63-be53-b0bf3d2f01c0",
      "name": [
        {
          "family": "Auer",
          "given": [
            "Melvin"
          ]
        }
      ],
      "resourceType": "Patient"
    },
    {
      "id": "6cf459aa-0807-469b-8198-61cb0335ae09",
      "name": [
        {
          "family": "Hyatt",
          "given": [
            "Alvina"
          ]
        }
      ],
      "resourceType": "Patient"
    },
    {
      "id": "fb45d493-e857-44f4-9379-c45977a5a052",
      "name": [
        {
          "family": "Strosin",
          "given": [
            "Wendy"
          ]
        }
      ],
      "resourceType": "Patient"
    },
    {
      "id": "5a68dff4-e4ff-4c4e-806b-dfc3f384c52c",
      "name": [
        {
          "family": "Steuber",
          "given": [
            "Amie"
          ]
        }
      ],
      "resourceType": "Patient"
    },
    {
      "id": "ee30bef6-039c-4ab1-81be-b8e83fb7338e",
      "name": [
        {
          "family": "Quigley",
          "given": [
            "Jamey"
          ]
        }
      ],
      "resourceType": "Patient"
    },
    {
      "id": "11d2df93-3923-4aaa-bca3-a769c4ae1b3c",
      "name": [
        {
          "family": "Schumm",
          "given": [
            "Mathew"
          ]
        }
      ],
      "resourceType": "Patient"
    }
  ],
  "episodes": [
    {
      "id": "19c51389-cb04-4bf2-b69f-728439291426",
      "resourceType": "EpisodeOfCare",
      "status": "active",
      "patient": {
        "reference": "Patient/6f5e952e-35d2-4ceb-b37f-2df4fa99d681"
      },
      "diagnosis": [
        {
          "condition": {
            "reference": "Condition/d3a92ec5-0e38-4c33-9af3-3e1d4e6cf873"
          }
        }
      ]
    },
    {
      "id": "3c120dbd-b098-4670-819b-7dc1bd8ec2ca",
      "resourceType": "EpisodeOfCare",
      "status": "active",
      "patient": {
        "reference": "Patient/6f5e952e-35d2-4ceb-b37f-2df4fa99d681"
      },
      "diagnosis": [
        {
          "condition": {
            "reference": "Condition/d3a92ec5-0e38-4c33-9af3-3e1d4e6cf873"
          }
        }
      ]
    },
    {
      "id": "91be171e-d22b-45a9-9fd8-c523399b38bd",
      "resourceType": "EpisodeOfCare",
      "status": "active",
      "patient": {
        "reference": "Patient/6f5e952e-35d2-4ceb-b37f-2df4fa99d681"
      },
      "diagnosis": [
        {
          "condition": {
            "reference": "Condition/d3a92ec5-0e38-4c33-9af3-3e1d4e6cf873"
          }
        }
      ]
    },
    {
      "id": "6828a003-f2ff-4625-8763-d241c72f9ee8",
      "resourceType": "EpisodeOfCare",
      "status": "active",
      "patient": {
        "reference": "Patient/6f5e952e-35d2-4ceb-b37f-2df4fa99d681"
      },
      "diagnosis": [
        {
          "condition": {
            "reference": "Condition/d3a92ec5-0e38-4c33-9af3-3e1d4e6cf873"
          }
        }
      ]
    },
    {
      "id": "f92c52e9-c5e3-45a1-b211-5f94392b9803",
      "resourceType": "EpisodeOfCare",
      "status": "active",
      "patient": {
        "reference": "Patient/6f5e952e-35d2-4ceb-b37f-2df4fa99d681"
      },
      "diagnosis": [
        {
          "condition": {
            "reference": "Condition/d3a92ec5-0e38-4c33-9af3-3e1d4e6cf873"
          }
        }
      ]
    },
    {
      "id": "a30b2f24-36a3-4f3a-b0ed-f717ba41af63",
      "resourceType": "EpisodeOfCare",
      "status": "active",
      "patient": {
        "reference": "Patient/33d79fcd-2a27-4e6d-bfd1-1841f47548ee"
      },
      "diagnosis": [
        {
          "condition": {
            "reference": "Condition/7f3d45f9-4975-4e77-a41a-c383bb33d2ad"
          }
        }
      ]
    },
    {
      "id": "4aea14eb-2b01-4aab-9e8d-71face9857e7",
      "resourceType": "EpisodeOfCare",
      "status": "active",
      "patient": {
        "reference": "Patient/33d79fcd-2a27-4e6d-bfd1-1841f47548ee"
      },
      "diagnosis": [
        {
          "condition": {
            "reference": "Condition/7f3d45f9-4975-4e77-a41a-c383bb33d2ad"
          }
        }
      ]
    },
    {
      "id": "bb317eee-8a24-43f9-b001-232fa80fbd42",
      "resourceType": "EpisodeOfCare",
      "status": "active",
      "patient": {
        "reference": "Patient/33d79fcd-2a27-4e6d-bfd1-1841f47548ee"
      },
      "diagnosis": [
        {
          "condition": {
            "reference": "Condition/7f3d45f9-4975-4e77-a41a-c383bb33d2ad"
          }
        }
      ]
    },
    {
      "id": "358d8eee-f8fe-438f-b9c9-b044a4d01fbc",
      "resourceType": "EpisodeOfCare",
      "status": "active",
      "patient": {
        "reference": "Patient/33d79fcd-2a27-4e6d-bfd1-1841f47548ee"
      },
      "diagnosis": [
        {
          "condition": {
            "reference": "Condition/7f3d45f9-4975-4e77-a41a-c383bb33d2ad"
          }
        }
      ]
    },
    {
      "id": "52f5fa08-6fa5-4413-a2da-b05e3ca1cad1",
      "resourceType": "EpisodeOfCare",
      "status": "active",
      "patient": {
        "reference": "Patient/33d79fcd-2a27-4e6d-bfd1-1841f47548ee"
      },
      "diagnosis": [
        {
          "condition": {
            "reference": "Condition/7f3d45f9-4975-4e77-a41a-c383bb33d2ad"
          }
        }
      ]
    },
    {
      "id": "043357d7-dec4-4ff8-926b-1bb1660ce48e",
      "resourceType": "EpisodeOfCare",
      "status": "active",
      "patient": {
        "reference": "Patient/171019fc-aaac-4904-83d2-676205c73f9a"
      },
      "diagnosis": [
        {
          "condition": {
            "reference": "Condition/a001174d-e82e-493b-bccc-a7a647090b57"
          }
        }
      ]
    },
    {
      "id": "25df5e94-b3ab-4891-852d-f743c5164dc7",
      "resourceType": "EpisodeOfCare",
      "status": "active",
      "patient": {
        "reference": "Patient/171019fc-aaac-4904-83d2-676205c73f9a"
      },
      "diagnosis": [
        {
          "condition": {
            "reference": "Condition/a001174d-e82e-493b-bccc-a7a647090b57"
          }
        }
      ]
    },
    {
      "id": "c72e50d7-cd2c-410f-9e72-7820f5ef5df8",
      "resourceType": "EpisodeOfCare",
      "status": "active",
      "patient": {
        "reference": "Patient/171019fc-aaac-4904-83d2-676205c73f9a"
      },
      "diagnosis": [
        {
          "condition": {
            "reference": "Condition/a001174d-e82e-493b-bccc-a7a647090b57"
          }
        }
      ]
    },
    {
      "id": "9c72f03b-28b5-4b79-a06d-bd33c50c247e",
      "resourceType": "EpisodeOfCare",
      "status": "active",
      "patient": {
        "reference": "Patient/171019fc-aaac-4904-83d2-676205c73f9a"
      },
      "diagnosis": [
        {
          "condition": {
            "reference": "Condition/a001174d-e82e-493b-bccc-a7a647090b57"
          }
        }
      ]
    },
    {
      "id": "4c1b85ad-fbb4-4985-a763-cc1f010d15fc",
      "resourceType": "EpisodeOfCare",
      "status": "active",
      "patient": {
        "reference": "Patient/171019fc-aaac-4904-83d2-676205c73f9a"
      },
      "diagnosis": [
        {
          "condition": {
            "reference": "Condition/a001174d-e82e-493b-bccc-a7a647090b57"
          }
        }
      ]
    },
    {
      "id": "403c953c-7845-4cbc-a276-2c5df891aa4b",
      "resourceType": "EpisodeOfCare",
      "status": "active",
      "patient": {
        "reference": "Patient/e3e612a4-6ba2-4d63-be53-b0bf3d2f01c0"
      },
      "diagnosis": [
        {
          "condition": {
            "reference": "Condition/5fae68ae-9394-47b1-bcb2-a8e82e21d0b2"
          }
        }
      ]
    },
    {
      "id": "9e309a42-27e9-4c42-91e0-b0a466bd73b2",
      "resourceType": "EpisodeOfCare",
      "status": "active",
      "patient": {
        "reference": "Patient/e3e612a4-6ba2-4d63-be53-b0bf3d2f01c0"
      },
      "diagnosis": [
        {
          "condition": {
            "reference": "Condition/5fae68ae-9394-47b1-bcb2-a8e82e21d0b2"
          }
        }
      ]
    },
    {
      "id": "cfe7833c-9168-4a15-9031-c99377c09a5e",
      "resourceType": "EpisodeOfCare",
      "status": "active",
      "patient": {
        "reference": "Patient/e3e612a4-6ba2-4d63-be53-b0bf3d2f01c0"
      },
      "diagnosis": [
        {
          "condition": {
            "reference": "Condition/5fae68ae-9394-47b1-bcb2-a8e82e21d0b2"
          }
        }
      ]
    },
    {
      "id": "e6bed5d1-ef5f-4d75-ba3f-b717ef4fdb9f",
      "resourceType": "EpisodeOfCare",
      "status": "active",
      "patient": {
        "reference": "Patient/e3e612a4-6ba2-4d63-be53-b0bf3d2f01c0"
      },
      "diagnosis": [
        {
          "condition": {
            "reference": "Condition/5fae68ae-9394-47b1-bcb2-a8e82e21d0b2"
          }
        }
      ]
    },
    {
      "id": "f724e861-2e65-4877-8662-66f067a9be45",
      "resourceType": "EpisodeOfCare",
      "status": "active",
      "patient": {
        "reference": "Patient/e3e612a4-6ba2-4d63-be53-b0bf3d2f01c0"
      },
      "diagnosis": [
        {
          "condition": {
            "reference": "Condition/5fae68ae-9394-47b1-bcb2-a8e82e21d0b2"
          }
        }
      ]
    },
    {
      "id": "9656d45c-e4fa-42d2-a990-17532aa0ed66",
      "resourceType": "EpisodeOfCare",
      "status": "active",
      "patient": {
        "reference": "Patient/6cf459aa-0807-469b-8198-61cb0335ae09"
      },
      "diagnosis": [
        {
          "condition": {
            "reference": "Condition/af38192d-fcf1-43a5-b250-0ba8b7e6daa5"
          }
        }
      ]
    },
    {
      "id": "9f84ae9c-eb0a-4476-a218-1cc5afacb23f",
      "resourceType": "EpisodeOfCare",
      "status": "active",
      "patient": {
        "reference": "Patient/6cf459aa-0807-469b-8198-61cb0335ae09"
      },
      "diagnosis": [
        {
          "condition": {
            "reference": "Condition/af38192d-fcf1-43a5-b250-0ba8b7e6daa5"
          }
        }
      ]
    },
    {
      "id": "1862da1b-b639-4e2e-b095-a0fdd3180dbc",
      "resourceType": "EpisodeOfCare",
      "status": "active",
      "patient": {
        "reference": "Patient/6cf459aa-0807-469b-8198-61cb0335ae09"
      },
      "diagnosis": [
        {
          "condition": {
            "reference": "Condition/af38192d-fcf1-43a5-b250-0ba8b7e6daa5"
          }
        }
      ]
    },
    {
      "id": "def0af3a-a38a-4f69-a979-ae499ca3dd33",
      "resourceType": "EpisodeOfCare",
      "status": "active",
      "patient": {
        "reference": "Patient/6cf459aa-0807-469b-8198-61cb0335ae09"
      },
      "diagnosis": [
        {
          "condition": {
            "reference": "Condition/af38192d-fcf1-43a5-b250-0ba8b7e6daa5"
          }
        }
      ]
    },
    {
      "id": "0ffb8936-d1e6-44fe-a4ff-7cff197dba99",
      "resourceType": "EpisodeOfCare",
      "status": "active",
      "patient": {
        "reference": "Patient/6cf459aa-0807-469b-8198-61cb0335ae09"
      },
      "diagnosis": [
        {
          "condition": {
            "reference": "Condition/af38192d-fcf1-43a5-b250-0ba8b7e6daa5"
          }
        }
      ]
    },
    {
      "id": "cb3fa0a7-7c47-4102-99c3-1dd566a2d021",
      "resourceType": "EpisodeOfCare",
      "status": "active",
      "patient": {
        "reference": "Patient/fb45d493-e857-44f4-9379-c45977a5a052"
      },
      "diagnosis": [
        {
          "condition": {
            "reference": "Condition/7e146c8a-3be9-4783-b93a-bd140a195777"
          }
        }
      ]
    },
    {
      "id": "c71a3029-19a1-440c-999e-5e4e48b88836",
      "resourceType": "EpisodeOfCare",
      "status": "active",
      "patient": {
        "reference": "Patient/fb45d493-e857-44f4-9379-c45977a5a052"
      },
      "diagnosis": [
        {
          "condition": {
            "reference": "Condition/7e146c8a-3be9-4783-b93a-bd140a195777"
          }
        }
      ]
    },
    {
      "id": "d45babb8-5494-458a-a759-a392e1f6e1ac",
      "resourceType": "EpisodeOfCare",
      "status": "active",
      "patient": {
        "reference": "Patient/fb45d493-e857-44f4-9379-c45977a5a052"
      },
      "diagnosis": [
        {
          "condition": {
            "reference": "Condition/7e146c8a-3be9-4783-b93a-bd140a195777"
          }
        }
      ]
    },
    {
      "id": "f43cc7b4-5874-4de7-9160-e6a709880e6b",
      "resourceType": "EpisodeOfCare",
      "status": "active",
      "patient": {
        "reference": "Patient/fb45d493-e857-44f4-9379-c45977a5a052"
      },
      "diagnosis": [
        {
          "condition": {
            "reference": "Condition/7e146c8a-3be9-4783-b93a-bd140a195777"
          }
        }
      ]
    },
    {
      "id": "16024df8-1435-4776-aee9-c8b70e2276b8",
      "resourceType": "EpisodeOfCare",
      "status": "active",
      "patient": {
        "reference": "Patient/fb45d493-e857-44f4-9379-c45977a5a052"
      },
      "diagnosis": [
        {
          "condition": {
            "reference": "Condition/7e146c8a-3be9-4783-b93a-bd140a195777"
          }
        }
      ]
    },
    {
      "id": "a9958f9d-91d0-4463-a3b3-757582367f02",
      "resourceType": "EpisodeOfCare",
      "status": "active",
      "patient": {
        "reference": "Patient/5a68dff4-e4ff-4c4e-806b-dfc3f384c52c"
      },
      "diagnosis": [
        {
          "condition": {
            "reference": "Condition/e50c4a18-30c2-4943-abb6-de1ac8c18d31"
          }
        }
      ]
    },
    {
      "id": "8a0b6c70-8e34-412c-9ce6-f577f069f901",
      "resourceType": "EpisodeOfCare",
      "status": "active",
      "patient": {
        "reference": "Patient/5a68dff4-e4ff-4c4e-806b-dfc3f384c52c"
      },
      "diagnosis": [
        {
          "condition": {
            "reference": "Condition/e50c4a18-30c2-4943-abb6-de1ac8c18d31"
          }
        }
      ]
    },
    {
      "id": "3a750ca1-f602-4c86-95c3-1306fd5e8c47",
      "resourceType": "EpisodeOfCare",
      "status": "active",
      "patient": {
        "reference": "Patient/5a68dff4-e4ff-4c4e-806b-dfc3f384c52c"
      },
      "diagnosis": [
        {
          "condition": {
            "reference": "Condition/e50c4a18-30c2-4943-abb6-de1ac8c18d31"
          }
        }
      ]
    },
    {
      "id": "119a8907-accc-46d7-8ccc-e560a721d38b",
      "resourceType": "EpisodeOfCare",
      "status": "active",
      "patient": {
        "reference": "Patient/5a68dff4-e4ff-4c4e-806b-dfc3f384c52c"
      },
      "diagnosis": [
        {
          "condition": {
            "reference": "Condition/e50c4a18-30c2-4943-abb6-de1ac8c18d31"
          }
        }
      ]
    },
    {
      "id": "3e6c1385-235b-4a1b-9afa-3b3919c5e222",
      "resourceType": "EpisodeOfCare",
      "status": "active",
      "patient": {
        "reference": "Patient/5a68dff4-e4ff-4c4e-806b-dfc3f384c52c"
      },
      "diagnosis": [
        {
          "condition": {
            "reference": "Condition/e50c4a18-30c2-4943-abb6-de1ac8c18d31"
          }
        }
      ]
    },
    {
      "id": "e2026b5e-a3c5-4de7-ad2e-7cd9c5bc3632",
      "resourceType": "EpisodeOfCare",
      "status": "active",
      "patient": {
        "reference": "Patient/ee30bef6-039c-4ab1-81be-b8e83fb7338e"
      },
      "diagnosis": [
        {
          "condition": {
            "reference": "Condition/58311774-a67f-4941-a73c-b48b0b319532"
          }
        }
      ]
    },
    {
      "id": "26c07eee-6967-4940-b3b9-6c01335457bf",
      "resourceType": "EpisodeOfCare",
      "status": "active",
      "patient": {
        "reference": "Patient/ee30bef6-039c-4ab1-81be-b8e83fb7338e"
      },
      "diagnosis": [
        {
          "condition": {
            "reference": "Condition/58311774-a67f-4941-a73c-b48b0b319532"
          }
        }
      ]
    },
    {
      "id": "f181b3b7-2586-4994-a2b1-65397eec3510",
      "resourceType": "EpisodeOfCare",
      "status": "active",
      "patient": {
        "reference": "Patient/ee30bef6-039c-4ab1-81be-b8e83fb7338e"
      },
      "diagnosis": [
        {
          "condition": {
            "reference": "Condition/58311774-a67f-4941-a73c-b48b0b319532"
          }
        }
      ]
    },
    {
      "id": "c2d0cd00-d3e2-49d3-afa0-6ff92ff0a748",
      "resourceType": "EpisodeOfCare",
      "status": "active",
      "patient": {
        "reference": "Patient/ee30bef6-039c-4ab1-81be-b8e83fb7338e"
      },
      "diagnosis": [
        {
          "condition": {
            "reference": "Condition/58311774-a67f-4941-a73c-b48b0b319532"
          }
        }
      ]
    },
    {
      "id": "e1fdfc5c-cf3c-4b76-bfa9-b1320d7107d1",
      "resourceType": "EpisodeOfCare",
      "status": "active",
      "patient": {
        "reference": "Patient/ee30bef6-039c-4ab1-81be-b8e83fb7338e"
      },
      "diagnosis": [
        {
          "condition": {
            "reference": "Condition/58311774-a67f-4941-a73c-b48b0b319532"
          }
        }
      ]
    },
    {
      "id": "e62b16a1-5e25-43e4-9cc2-c35b85b8f070",
      "resourceType": "EpisodeOfCare",
      "status": "active",
      "patient": {
        "reference": "Patient/11d2df93-3923-4aaa-bca3-a769c4ae1b3c"
      },
      "diagnosis": [
        {
          "condition": {
            "reference": "Condition/e8e4f780-2cea-45d7-97b3-e3a6bd7f241b"
          }
        }
      ]
    },
    {
      "id": "50441cfd-e96f-4d38-b0a9-233444e17e24",
      "resourceType": "EpisodeOfCare",
      "status": "active",
      "patient": {
        "reference": "Patient/11d2df93-3923-4aaa-bca3-a769c4ae1b3c"
      },
      "diagnosis": [
        {
          "condition": {
            "reference": "Condition/e8e4f780-2cea-45d7-97b3-e3a6bd7f241b"
          }
        }
      ]
    },
    {
      "id": "21713125-4097-49ea-ae34-0fe616d1ab8e",
      "resourceType": "EpisodeOfCare",
      "status": "active",
      "patient": {
        "reference": "Patient/11d2df93-3923-4aaa-bca3-a769c4ae1b3c"
      },
      "diagnosis": [
        {
          "condition": {
            "reference": "Condition/e8e4f780-2cea-45d7-97b3-e3a6bd7f241b"
          }
        }
      ]
    },
    {
      "id": "dbeab907-47dc-42b5-a01f-334c4d15f855",
      "resourceType": "EpisodeOfCare",
      "status": "active",
      "patient": {
        "reference": "Patient/11d2df93-3923-4aaa-bca3-a769c4ae1b3c"
      },
      "diagnosis": [
        {
          "condition": {
            "reference": "Condition/e8e4f780-2cea-45d7-97b3-e3a6bd7f241b"
          }
        }
      ]
    },
    {
      "id": "19aac8a7-0b68-4e8b-bc56-5e29bf53e483",
      "resourceType": "EpisodeOfCare",
      "status": "active",
      "patient": {
        "reference": "Patient/11d2df93-3923-4aaa-bca3-a769c4ae1b3c"
      },
      "diagnosis": [
        {
          "condition": {
            "reference": "Condition/e8e4f780-2cea-45d7-97b3-e3a6bd7f241b"
          }
        }
      ]
    },
    {
      "id": "c79b662b-2594-4e1a-9ff7-3e65407aaeb9",
      "resourceType": "EpisodeOfCare",
      "status": "active",
      "patient": {
        "reference": "Patient/09bd83f0-d128-4334-b8bd-a2980eda70b4"
      },
      "diagnosis": [
        {
          "condition": {
            "reference": "Condition/bb0a8898-0ba2-49a2-bda4-bd0001dfcc23"
          }
        }
      ]
    },
    {
      "id": "8bb41c18-9aeb-4357-8595-46067cd02b20",
      "resourceType": "EpisodeOfCare",
      "status": "active",
      "patient": {
        "reference": "Patient/09bd83f0-d128-4334-b8bd-a2980eda70b4"
      },
      "diagnosis": [
        {
          "condition": {
            "reference": "Condition/bb0a8898-0ba2-49a2-bda4-bd0001dfcc23"
          }
        }
      ]
    },
    {
      "id": "275918eb-0756-446a-8a1e-f58a1845c789",
      "resourceType": "EpisodeOfCare",
      "status": "active",
      "patient": {
        "reference": "Patient/09bd83f0-d128-4334-b8bd-a2980eda70b4"
      },
      "diagnosis": [
        {
          "condition": {
            "reference": "Condition/bb0a8898-0ba2-49a2-bda4-bd0001dfcc23"
          }
        }
      ]
    },
    {
      "id": "191425ac-f62e-4311-a3de-9883d2a2c162",
      "resourceType": "EpisodeOfCare",
      "status": "active",
      "patient": {
        "reference": "Patient/09bd83f0-d128-4334-b8bd-a2980eda70b4"
      },
      "diagnosis": [
        {
          "condition": {
            "reference": "Condition/bb0a8898-0ba2-49a2-bda4-bd0001dfcc23"
          }
        }
      ]
    },
    {
      "id": "208e4854-55e5-4e94-b8df-76bd0565b796",
      "resourceType": "EpisodeOfCare",
      "status": "active",
      "patient": {
        "reference": "Patient/09bd83f0-d128-4334-b8bd-a2980eda70b4"
      },
      "diagnosis": [
        {
          "condition": {
            "reference": "Condition/bb0a8898-0ba2-49a2-bda4-bd0001dfcc23"
          }
        }
      ]
    }
  ],
  "conditions": [
    {
      "id": "bb0a8898-0ba2-49a2-bda4-bd0001dfcc23",
      "note": [
        {
          "text": "Sonitus crustulum cur tamdiu."
        }
      ],
      "resourceType": "Condition",
      "subject": {
        "reference": "Patient/09bd83f0-d128-4334-b8bd-a2980eda70b4"
      }
    },
    {
      "id": "d3a92ec5-0e38-4c33-9af3-3e1d4e6cf873",
      "note": [
        {
          "text": "Angustus beatus una bos."
        }
      ],
      "resourceType": "Condition",
      "subject": {
        "reference": "Patient/6f5e952e-35d2-4ceb-b37f-2df4fa99d681"
      }
    },
    {
      "id": "7f3d45f9-4975-4e77-a41a-c383bb33d2ad",
      "note": [
        {
          "text": "Iusto claro approbo iusto abbas."
        }
      ],
      "resourceType": "Condition",
      "subject": {
        "reference": "Patient/33d79fcd-2a27-4e6d-bfd1-1841f47548ee"
      }
    },
    {
      "id": "a001174d-e82e-493b-bccc-a7a647090b57",
      "note": [
        {
          "text": "Totus coadunatio calcar contigo adhaero."
        }
      ],
      "resourceType": "Condition",
      "subject": {
        "reference": "Patient/171019fc-aaac-4904-83d2-676205c73f9a"
      }
    },
    {
      "id": "5fae68ae-9394-47b1-bcb2-a8e82e21d0b2",
      "note": [
        {
          "text": "Approbo ago collum via assentator."
        }
      ],
      "resourceType": "Condition",
      "subject": {
        "reference": "Patient/e3e612a4-6ba2-4d63-be53-b0bf3d2f01c0"
      }
    },
    {
      "id": "af38192d-fcf1-43a5-b250-0ba8b7e6daa5",
      "note": [
        {
          "text": "Temptatio thymbra ulciscor copia."
        }
      ],
      "resourceType": "Condition",
      "subject": {
        "reference": "Patient/6cf459aa-0807-469b-8198-61cb0335ae09"
      }
    },
    {
      "id": "7e146c8a-3be9-4783-b93a-bd140a195777",
      "note": [
        {
          "text": "Tabesco mollitia vir."
        }
      ],
      "resourceType": "Condition",
      "subject": {
        "reference": "Patient/fb45d493-e857-44f4-9379-c45977a5a052"
      }
    },
    {
      "id": "e50c4a18-30c2-4943-abb6-de1ac8c18d31",
      "note": [
        {
          "text": "Vapulus stillicidium illo."
        }
      ],
      "resourceType": "Condition",
      "subject": {
        "reference": "Patient/5a68dff4-e4ff-4c4e-806b-dfc3f384c52c"
      }
    },
    {
      "id": "58311774-a67f-4941-a73c-b48b0b319532",
      "note": [
        {
          "text": "Curis cedo suus."
        }
      ],
      "resourceType": "Condition",
      "subject": {
        "reference": "Patient/ee30bef6-039c-4ab1-81be-b8e83fb7338e"
      }
    },
    {
      "id": "e8e4f780-2cea-45d7-97b3-e3a6bd7f241b",
      "note": [
        {
          "text": "Vallum aliqua adfero vos vilicus."
        }
      ],
      "resourceType": "Condition",
      "subject": {
        "reference": "Patient/11d2df93-3923-4aaa-bca3-a769c4ae1b3c"
      }
    }
  ]
}