{
  "patients": [
    {
      "id": "05a28abe-826f-4f8c-892e-b92502de9e03",
      "name": [
        {
          "family": "Beier",
          "given": [
            "Kirsten"
          ]
        }
      ],
      "resourceType": "Patient",
      "birthDate": "1996-05-14"
    },
    {
      "id": "10cf7665-cadf-41f4-bf08-91b0157a6818",
      "name": [
        {
          "family": "Wehner",
          "given": [
            "Chanelle"
          ]
        }
      ],
      "resourceType": "Patient",
      "birthDate": "1985-06-15"
    },
    {
      "id": "39932dc6-82d2-4c9c-b673-7cc6078961d2",
      "name": [
        {
          "family": "Legros",
          "given": [
            "Paxton"
          ]
        }
      ],
      "resourceType": "Patient",
      "birthDate": "2013-04-29"
    },
    {
      "id": "7d0abf4b-f784-4303-ac2a-f8c43ed02569",
      "name": [
        {
          "family": "Baumbach",
          "given": [
            "Clinton"
          ]
        }
      ],
      "resourceType": "Patient",
      "birthDate": "1952-03-09"
    },
    {
      "id": "1d4a7bbf-db8b-4610-ba9f-9c8695961932",
      "name": [
        {
          "family": "Klocko",
          "given": [
            "Fredrick"
          ]
        }
      ],
      "resourceType": "Patient",
      "birthDate": "1952-10-25"
    },
    {
      "id": "926267ce-bce2-4b4d-9540-0ee152ba2bea",
      "name": [
        {
          "family": "Huel",
          "given": [
            "Marianne"
          ]
        }
      ],
      "resourceType": "Patient",
      "birthDate": "1956-03-12"
    },
    {
      "id": "30eeffa7-c8e6-4f9a-b030-18200eab8047",
      "name": [
        {
          "family": "Gottlieb",
          "given": [
            "Amber"
          ]
        }
      ],
      "resourceType": "Patient",
      "birthDate": "1990-12-29"
    },
    {
      "id": "c855ef0e-73bc-43f8-ac12-51b54bc5de90",
      "name": [
        {
          "family": "Hessel",
          "given": [
            "Augustus"
          ]
        }
      ],
      "resourceType": "Patient",
      "birthDate": "2023-02-02"
    },
    {
      "id": "5065cc07-d54c-4b30-b430-447a7200a213",
      "name": [
        {
          "family": "Kuphal",
          "given": [
            "Amy"
          ]
        }
      ],
      "resourceType": "Patient",
      "birthDate": "1990-01-23"
    },
    {
      "id": "16479dc7-2202-4cb8-8b44-501ade34c930",
      "name": [
        {
          "family": "Toy",
          "given": [
            "Gideon"
          ]
        }
      ],
      "resourceType": "Patient",
      "birthDate": "1963-11-29"
    }
  ],
  "episodes": [
    {
      "id": "9faec5cf-0233-4c45-9eac-e8dc3b46ef62",
      "resourceType": "EpisodeOfCare",
      "status": "active",
      "patient": {
        "reference": "Patient/10cf7665-cadf-41f4-bf08-91b0157a6818"
      },
      "diagnosis": [
        {
          "condition": {
            "reference": "Condition/5f1c4029-dfc3-4939-a8b3-48fb69086ebf"
          }
        }
      ]
    },
    {
      "id": "1c6b04b1-975c-4069-8bb4-691be534505a",
      "resourceType": "EpisodeOfCare",
      "status": "active",
      "patient": {
        "reference": "Patient/10cf7665-cadf-41f4-bf08-91b0157a6818"
      },
      "diagnosis": [
        {
          "condition": {
            "reference": "Condition/5f1c4029-dfc3-4939-a8b3-48fb69086ebf"
          }
        }
      ]
    },
    {
      "id": "93f15190-4a8b-46b5-988b-3ba43e09eafb",
      "resourceType": "EpisodeOfCare",
      "status": "active",
      "patient": {
        "reference": "Patient/10cf7665-cadf-41f4-bf08-91b0157a6818"
      },
      "diagnosis": [
        {
          "condition": {
            "reference": "Condition/5f1c4029-dfc3-4939-a8b3-48fb69086ebf"
          }
        }
      ]
    },
    {
      "id": "9df6b9ed-84ff-49ac-99aa-2aa78a4fa997",
      "resourceType": "EpisodeOfCare",
      "status": "active",
      "patient": {
        "reference": "Patient/10cf7665-cadf-41f4-bf08-91b0157a6818"
      },
      "diagnosis": [
        {
          "condition": {
            "reference": "Condition/5f1c4029-dfc3-4939-a8b3-48fb69086ebf"
          }
        }
      ]
    },
    {
      "id": "bf0af934-40e0-4771-92db-e72b8f9d1ffd",
      "resourceType": "EpisodeOfCare",
      "status": "active",
      "patient": {
        "reference": "Patient/10cf7665-cadf-41f4-bf08-91b0157a6818"
      },
      "diagnosis": [
        {
          "condition": {
            "reference": "Condition/5f1c4029-dfc3-4939-a8b3-48fb69086ebf"
          }
        }
      ]
    },
    {
      "id": "c3c47a91-be80-4f89-a9b4-97d7f117560a",
      "resourceType": "EpisodeOfCare",
      "status": "active",
      "patient": {
        "reference": "Patient/39932dc6-82d2-4c9c-b673-7cc6078961d2"
      },
      "diagnosis": [
        {
          "condition": {
            "reference": "Condition/aa6ad92a-9d62-4d5e-8f1b-f735545e2f72"
          }
        }
      ]
    },
    {
      "id": "e1b2eb4d-d097-44be-b356-192a0d6f95c1",
      "resourceType": "EpisodeOfCare",
      "status": "active",
      "patient": {
        "reference": "Patient/39932dc6-82d2-4c9c-b673-7cc6078961d2"
      },
      "diagnosis": [
        {
          "condition": {
            "reference": "Condition/aa6ad92a-9d62-4d5e-8f1b-f735545e2f72"
          }
        }
      ]
    },
    {
      "id": "63c76fed-617f-49db-84e5-c610557e7e74",
      "resourceType": "EpisodeOfCare",
      "status": "active",
      "patient": {
        "reference": "Patient/39932dc6-82d2-4c9c-b673-7cc6078961d2"
      },
      "diagnosis": [
        {
          "condition": {
            "reference": "Condition/aa6ad92a-9d62-4d5e-8f1b-f735545e2f72"
          }
        }
      ]
    },
    {
      "id": "584bb909-050a-43e6-bb1c-6418c8555579",
      "resourceType": "EpisodeOfCare",
      "status": "active",
      "patient": {
        "reference": "Patient/39932dc6-82d2-4c9c-b673-7cc6078961d2"
      },
      "diagnosis": [
        {
          "condition": {
            "reference": "Condition/aa6ad92a-9d62-4d5e-8f1b-f735545e2f72"
          }
        }
      ]
    },
    {
      "id": "3fb5b752-a234-478d-9976-ea00279b3f72",
      "resourceType": "EpisodeOfCare",
      "status": "active",
      "patient": {
        "reference": "Patient/39932dc6-82d2-4c9c-b673-7cc6078961d2"
      },
      "diagnosis": [
        {
          "condition": {
            "reference": "Condition/aa6ad92a-9d62-4d5e-8f1b-f735545e2f72"
          }
        }
      ]
    },
    {
      "id": "48070701-681a-4016-9b5a-9ea76f09c59d",
      "resourceType": "EpisodeOfCare",
      "status": "active",
      "patient": {
        "reference": "Patient/7d0abf4b-f784-4303-ac2a-f8c43ed02569"
      },
      "diagnosis": [
        {
          "condition": {
            "reference": "Condition/4ba14803-164d-4316-8a63-567a0db9aa8a"
          }
        }
      ]
    },
    {
      "id": "bfebc280-e01e-4105-9150-2f3b6ecb380a",
      "resourceType": "EpisodeOfCare",
      "status": "active",
      "patient": {
        "reference": "Patient/7d0abf4b-f784-4303-ac2a-f8c43ed02569"
      },
      "diagnosis": [
        {
          "condition": {
            "reference": "Condition/4ba14803-164d-4316-8a63-567a0db9aa8a"
          }
        }
      ]
    },
    {
      "id": "7db0b827-bc38-45d8-81dd-d24a54e19c04",
      "resourceType": "EpisodeOfCare",
      "status": "active",
      "patient": {
        "reference": "Patient/7d0abf4b-f784-4303-ac2a-f8c43ed02569"
      },
      "diagnosis": [
        {
          "condition": {
            "reference": "Condition/4ba14803-164d-4316-8a63-567a0db9aa8a"
          }
        }
      ]
    },
    {
      "id": "9de53579-2250-436e-8999-1d04e7b5d8a5",
      "resourceType": "EpisodeOfCare",
      "status": "active",
      "patient": {
        "reference": "Patient/7d0abf4b-f784-4303-ac2a-f8c43ed02569"
      },
      "diagnosis": [
        {
          "condition": {
            "reference": "Condition/4ba14803-164d-4316-8a63-567a0db9aa8a"
          }
        }
      ]
    },
    {
      "id": "10a08f00-c23f-4754-b4c0-e6c76915ab6e",
      "resourceType": "EpisodeOfCare",
      "status": "active",
      "patient": {
        "reference": "Patient/7d0abf4b-f784-4303-ac2a-f8c43ed02569"
      },
      "diagnosis": [
        {
          "condition": {
            "reference": "Condition/4ba14803-164d-4316-8a63-567a0db9aa8a"
          }
        }
      ]
    },
    {
      "id": "78024ae6-f363-48ed-8881-d706c6fff92d",
      "resourceType": "EpisodeOfCare",
      "status": "active",
      "patient": {
        "reference": "Patient/1d4a7bbf-db8b-4610-ba9f-9c8695961932"
      },
      "diagnosis": [
        {
          "condition": {
            "reference": "Condition/d8b6ce72-28f3-42a4-96af-7d18f6ed3004"
          }
        }
      ]
    },
    {
      "id": "c0daacbd-ee09-45be-8a8e-566f4015a4de",
      "resourceType": "EpisodeOfCare",
      "status": "active",
      "patient": {
        "reference": "Patient/1d4a7bbf-db8b-4610-ba9f-9c8695961932"
      },
      "diagnosis": [
        {
          "condition": {
            "reference": "Condition/d8b6ce72-28f3-42a4-96af-7d18f6ed3004"
          }
        }
      ]
    },
    {
      "id": "ed56fa15-1a33-44a2-ac84-362546171c9a",
      "resourceType": "EpisodeOfCare",
      "status": "active",
      "patient": {
        "reference": "Patient/1d4a7bbf-db8b-4610-ba9f-9c8695961932"
      },
      "diagnosis": [
        {
          "condition": {
            "reference": "Condition/d8b6ce72-28f3-42a4-96af-7d18f6ed3004"
          }
        }
      ]
    },
    {
      "id": "99e6fbe0-2372-4d8d-a25b-34fedb81146e",
      "resourceType": "EpisodeOfCare",
      "status": "active",
      "patient": {
        "reference": "Patient/1d4a7bbf-db8b-4610-ba9f-9c8695961932"
      },
      "diagnosis": [
        {
          "condition": {
            "reference": "Condition/d8b6ce72-28f3-42a4-96af-7d18f6ed3004"
          }
        }
      ]
    },
    {
      "id": "b505b1de-c9fb-4968-b01d-142652ad7425",
      "resourceType": "EpisodeOfCare",
      "status": "active",
      "patient": {
        "reference": "Patient/1d4a7bbf-db8b-4610-ba9f-9c8695961932"
      },
      "diagnosis": [
        {
          "condition": {
            "reference": "Condition/d8b6ce72-28f3-42a4-96af-7d18f6ed3004"
          }
        }
      ]
    },
    {
      "id": "e0c3542a-163e-4b2f-aab7-85c74da4d5a6",
      "resourceType": "EpisodeOfCare",
      "status": "active",
      "patient": {
        "reference": "Patient/926267ce-bce2-4b4d-9540-0ee152ba2bea"
      },
      "diagnosis": [
        {
          "condition": {
            "reference": "Condition/99f1daf8-6432-4dd5-9d34-0d7a6860d8fb"
          }
        }
      ]
    },
    {
      "id": "4094456a-33fe-4f04-8117-cc15c3cfdf11",
      "resourceType": "EpisodeOfCare",
      "status": "active",
      "patient": {
        "reference": "Patient/926267ce-bce2-4b4d-9540-0ee152ba2bea"
      },
      "diagnosis": [
        {
          "condition": {
            "reference": "Condition/99f1daf8-6432-4dd5-9d34-0d7a6860d8fb"
          }
        }
      ]
    },
    {
      "id": "86d64967-01c0-40b4-8cba-3ec9381cd284",
      "resourceType": "EpisodeOfCare",
      "status": "active",
      "patient": {
        "reference": "Patient/926267ce-bce2-4b4d-9540-0ee152ba2bea"
      },
      "diagnosis": [
        {
          "condition": {
            "reference": "Condition/99f1daf8-6432-4dd5-9d34-0d7a6860d8fb"
          }
        }
      ]
    },
    {
      "id": "230d59e9-4234-4daf-af17-731f768bee0a",
      "resourceType": "EpisodeOfCare",
      "status": "active",
      "patient": {
        "reference": "Patient/926267ce-bce2-4b4d-9540-0ee152ba2bea"
      },
      "diagnosis": [
        {
          "condition": {
            "reference": "Condition/99f1daf8-6432-4dd5-9d34-0d7a6860d8fb"
          }
        }
      ]
    },
    {
      "id": "58a29c47-4005-43c3-9873-66194422794f",
      "resourceType": "EpisodeOfCare",
      "status": "active",
      "patient": {
        "reference": "Patient/926267ce-bce2-4b4d-9540-0ee152ba2bea"
      },
      "diagnosis": [
        {
          "condition": {
            "reference": "Condition/99f1daf8-6432-4dd5-9d34-0d7a6860d8fb"
          }
        }
      ]
    },
    {
      "id": "5e2d9fac-a293-4834-ba9c-ca73d7826d35",
      "resourceType": "EpisodeOfCare",
      "status": "active",
      "patient": {
        "reference": "Patient/30eeffa7-c8e6-4f9a-b030-18200eab8047"
      },
      "diagnosis": [
        {
          "condition": {
            "reference": "Condition/f8a68a97-61d8-4bd6-a656-5589a60d3f48"
          }
        }
      ]
    },
    {
      "id": "f59c5f9d-72c4-4b9b-86e4-2338cabf96e5",
      "resourceType": "EpisodeOfCare",
      "status": "active",
      "patient": {
        "reference": "Patient/30eeffa7-c8e6-4f9a-b030-18200eab8047"
      },
      "diagnosis": [
        {
          "condition": {
            "reference": "Condition/f8a68a97-61d8-4bd6-a656-5589a60d3f48"
          }
        }
      ]
    },
    {
      "id": "540f607a-6dd2-4bc5-aaaf-a07249df78dc",
      "resourceType": "EpisodeOfCare",
      "status": "active",
      "patient": {
        "reference": "Patient/30eeffa7-c8e6-4f9a-b030-18200eab8047"
      },
      "diagnosis": [
        {
          "condition": {
            "reference": "Condition/f8a68a97-61d8-4bd6-a656-5589a60d3f48"
          }
        }
      ]
    },
    {
      "id": "84badd07-ee5d-42ad-bf0c-4a574ec55c37",
      "resourceType": "EpisodeOfCare",
      "status": "active",
      "patient": {
        "reference": "Patient/30eeffa7-c8e6-4f9a-b030-18200eab8047"
      },
      "diagnosis": [
        {
          "condition": {
            "reference": "Condition/f8a68a97-61d8-4bd6-a656-5589a60d3f48"
          }
        }
      ]
    },
    {
      "id": "eff729b4-dfe7-4f02-acf6-1654a9bcfd47",
      "resourceType": "EpisodeOfCare",
      "status": "active",
      "patient": {
        "reference": "Patient/30eeffa7-c8e6-4f9a-b030-18200eab8047"
      },
      "diagnosis": [
        {
          "condition": {
            "reference": "Condition/f8a68a97-61d8-4bd6-a656-5589a60d3f48"
          }
        }
      ]
    },
    {
      "id": "12444a54-8653-4f83-af58-23a79bfd307f",
      "resourceType": "EpisodeOfCare",
      "status": "active",
      "patient": {
        "reference": "Patient/c855ef0e-73bc-43f8-ac12-51b54bc5de90"
      },
      "diagnosis": [
        {
          "condition": {
            "reference": "Condition/e844fd83-1094-4571-a425-9c978bdb99a5"
          }
        }
      ]
    },
    {
      "id": "412b0579-dd85-4114-8729-be4d4b8f850d",
      "resourceType": "EpisodeOfCare",
      "status": "active",
      "patient": {
        "reference": "Patient/c855ef0e-73bc-43f8-ac12-51b54bc5de90"
      },
      "diagnosis": [
        {
          "condition": {
            "reference": "Condition/e844fd83-1094-4571-a425-9c978bdb99a5"
          }
        }
      ]
    },
    {
      "id": "ac7b0113-f9a0-43bf-8026-8341f21bea4f",
      "resourceType": "EpisodeOfCare",
      "status": "active",
      "patient": {
        "reference": "Patient/c855ef0e-73bc-43f8-ac12-51b54bc5de90"
      },
      "diagnosis": [
        {
          "condition": {
            "reference": "Condition/e844fd83-1094-4571-a425-9c978bdb99a5"
          }
        }
      ]
    },
    {
      "id": "e89c9485-6163-427a-90cf-94eecb9b6a5a",
      "resourceType": "EpisodeOfCare",
      "status": "active",
      "patient": {
        "reference": "Patient/c855ef0e-73bc-43f8-ac12-51b54bc5de90"
      },
      "diagnosis": [
        {
          "condition": {
            "reference": "Condition/e844fd83-1094-4571-a425-9c978bdb99a5"
          }
        }
      ]
    },
    {
      "id": "137ea8cb-32cb-4287-9e42-4d82825c6ce1",
      "resourceType": "EpisodeOfCare",
      "status": "active",
      "patient": {
        "reference": "Patient/c855ef0e-73bc-43f8-ac12-51b54bc5de90"
      },
      "diagnosis": [
        {
          "condition": {
            "reference": "Condition/e844fd83-1094-4571-a425-9c978bdb99a5"
          }
        }
      ]
    },
    {
      "id": "adb6bf5e-43ce-46c0-acd9-856d3de2dcae",
      "resourceType": "EpisodeOfCare",
      "status": "active",
      "patient": {
        "reference": "Patient/5065cc07-d54c-4b30-b430-447a7200a213"
      },
      "diagnosis": [
        {
          "condition": {
            "reference": "Condition/322196ce-a384-4df8-8b29-80f35b3a33d3"
          }
        }
      ]
    },
    {
      "id": "2b08c5fd-cdfb-400b-8b6c-f7388c391af3",
      "resourceType": "EpisodeOfCare",
      "status": "active",
      "patient": {
        "reference": "Patient/5065cc07-d54c-4b30-b430-447a7200a213"
      },
      "diagnosis": [
        {
          "condition": {
            "reference": "Condition/322196ce-a384-4df8-8b29-80f35b3a33d3"
          }
        }
      ]
    },
    {
      "id": "9a105d51-90db-4306-b3e7-98447f7dad70",
      "resourceType": "EpisodeOfCare",
      "status": "active",
      "patient": {
        "reference": "Patient/5065cc07-d54c-4b30-b430-447a7200a213"
      },
      "diagnosis": [
        {
          "condition": {
            "reference": "Condition/322196ce-a384-4df8-8b29-80f35b3a33d3"
          }
        }
      ]
    },
    {
      "id": "79eee951-aeb9-4ea0-ba4e-dcbf363f4215",
      "resourceType": "EpisodeOfCare",
      "status": "active",
      "patient": {
        "reference": "Patient/5065cc07-d54c-4b30-b430-447a7200a213"
      },
      "diagnosis": [
        {
          "condition": {
            "reference": "Condition/322196ce-a384-4df8-8b29-80f35b3a33d3"
          }
        }
      ]
    },
    {
      "id": "216f36a4-b6df-4125-b932-a58cdb731c29",
      "resourceType": "EpisodeOfCare",
      "status": "active",
      "patient": {
        "reference": "Patient/5065cc07-d54c-4b30-b430-447a7200a213"
      },
      "diagnosis": [
        {
          "condition": {
            "reference": "Condition/322196ce-a384-4df8-8b29-80f35b3a33d3"
          }
        }
      ]
    },
    {
      "id": "5aa339f4-081c-462b-9cc8-00b9a1c56720",
      "resourceType": "EpisodeOfCare",
      "status": "active",
      "patient": {
        "reference": "Patient/16479dc7-2202-4cb8-8b44-501ade34c930"
      },
      "diagnosis": [
        {
          "condition": {
            "reference": "Condition/a50c4292-0694-4cf4-872c-185d7347d383"
          }
        }
      ]
    },
    {
      "id": "37df3fea-f74b-4013-8767-9c4127295aeb",
      "resourceType": "EpisodeOfCare",
      "status": "active",
      "patient": {
        "reference": "Patient/16479dc7-2202-4cb8-8b44-501ade34c930"
      },
      "diagnosis": [
        {
          "condition": {
            "reference": "Condition/a50c4292-0694-4cf4-872c-185d7347d383"
          }
        }
      ]
    },
    {
      "id": "6bfa07ba-3ffc-4a86-8fed-8dd8a12b5cd6",
      "resourceType": "EpisodeOfCare",
      "status": "active",
      "patient": {
        "reference": "Patient/16479dc7-2202-4cb8-8b44-501ade34c930"
      },
      "diagnosis": [
        {
          "condition": {
            "reference": "Condition/a50c4292-0694-4cf4-872c-185d7347d383"
          }
        }
      ]
    },
    {
      "id": "063dd94b-53a1-4ed3-855a-1d34443ddc55",
      "resourceType": "EpisodeOfCare",
      "status": "active",
      "patient": {
        "reference": "Patient/16479dc7-2202-4cb8-8b44-501ade34c930"
      },
      "diagnosis": [
        {
          "condition": {
            "reference": "Condition/a50c4292-0694-4cf4-872c-185d7347d383"
          }
        }
      ]
    },
    {
      "id": "1736970d-647d-4229-9095-d3c60bc21055",
      "resourceType": "EpisodeOfCare",
      "status": "active",
      "patient": {
        "reference": "Patient/16479dc7-2202-4cb8-8b44-501ade34c930"
      },
      "diagnosis": [
        {
          "condition": {
            "reference": "Condition/a50c4292-0694-4cf4-872c-185d7347d383"
          }
        }
      ]
    },
    {
      "id": "c6065409-f4e0-4f05-85a9-7ad1815011e6",
      "resourceType": "EpisodeOfCare",
      "status": "active",
      "patient": {
        "reference": "Patient/05a28abe-826f-4f8c-892e-b92502de9e03"
      },
      "diagnosis": [
        {
          "condition": {
            "reference": "Condition/c13d461e-89a3-421f-9b13-b70bec59b838"
          }
        }
      ]
    },
    {
      "id": "1dafe4eb-1896-4168-9cb9-3a40f3ed1ffa",
      "resourceType": "EpisodeOfCare",
      "status": "active",
      "patient": {
        "reference": "Patient/05a28abe-826f-4f8c-892e-b92502de9e03"
      },
      "diagnosis": [
        {
          "condition": {
            "reference": "Condition/c13d461e-89a3-421f-9b13-b70bec59b838"
          }
        }
      ]
    },
    {
      "id": "9451157e-37d7-432d-a069-f2f17b4dc629",
      "resourceType": "EpisodeOfCare",
      "status": "active",
      "patient": {
        "reference": "Patient/05a28abe-826f-4f8c-892e-b92502de9e03"
      },
      "diagnosis": [
        {
          "condition": {
            "reference": "Condition/c13d461e-89a3-421f-9b13-b70bec59b838"
          }
        }
      ]
    },
    {
      "id": "c1e13387-5975-4cd2-a343-8046a7d2f281",
      "resourceType": "EpisodeOfCare",
      "status": "active",
      "patient": {
        "reference": "Patient/05a28abe-826f-4f8c-892e-b92502de9e03"
      },
      "diagnosis": [
        {
          "condition": {
            "reference": "Condition/c13d461e-89a3-421f-9b13-b70bec59b838"
          }
        }
      ]
    },
    {
      "id": "2f67d7d3-bacb-421e-8818-14345541bb2a",
      "resourceType": "EpisodeOfCare",
      "status": "active",
      "patient": {
        "reference": "Patient/05a28abe-826f-4f8c-892e-b92502de9e03"
      },
      "diagnosis": [
        {
          "condition": {
            "reference": "Condition/c13d461e-89a3-421f-9b13-b70bec59b838"
          }
        }
      ]
    }
  ],
  "conditions": [
    {
      "id": "c13d461e-89a3-421f-9b13-b70bec59b838",
      "note": [
        {
          "text": "Ambitus magnam credo arguo."
        }
      ],
      "resourceType": "Condition",
      "subject": {
        "reference": "Patient/05a28abe-826f-4f8c-892e-b92502de9e03"
      }
    },
    {
      "id": "5f1c4029-dfc3-4939-a8b3-48fb69086ebf",
      "note": [
        {
          "text": "Vomito clibanus sub cubicularis."
        }
      ],
      "resourceType": "Condition",
      "subject": {
        "reference": "Patient/10cf7665-cadf-41f4-bf08-91b0157a6818"
      }
    },
    {
      "id": "aa6ad92a-9d62-4d5e-8f1b-f735545e2f72",
      "note": [
        {
          "text": "Adflicto creber ipsa adicio error."
        }
      ],
      "resourceType": "Condition",
      "subject": {
        "reference": "Patient/39932dc6-82d2-4c9c-b673-7cc6078961d2"
      }
    },
    {
      "id": "4ba14803-164d-4316-8a63-567a0db9aa8a",
      "note": [
        {
          "text": "Esse beneficium ceno."
        }
      ],
      "resourceType": "Condition",
      "subject": {
        "reference": "Patient/7d0abf4b-f784-4303-ac2a-f8c43ed02569"
      }
    },
    {
      "id": "d8b6ce72-28f3-42a4-96af-7d18f6ed3004",
      "note": [
        {
          "text": "Venio cognomen turbo tyrannus."
        }
      ],
      "resourceType": "Condition",
      "subject": {
        "reference": "Patient/1d4a7bbf-db8b-4610-ba9f-9c8695961932"
      }
    },
    {
      "id": "99f1daf8-6432-4dd5-9d34-0d7a6860d8fb",
      "note": [
        {
          "text": "Ascit attonbitus accusator arx thymbra."
        }
      ],
      "resourceType": "Condition",
      "subject": {
        "reference": "Patient/926267ce-bce2-4b4d-9540-0ee152ba2bea"
      }
    },
    {
      "id": "f8a68a97-61d8-4bd6-a656-5589a60d3f48",
      "note": [
        {
          "text": "Contego desipio thymbra."
        }
      ],
      "resourceType": "Condition",
      "subject": {
        "reference": "Patient/30eeffa7-c8e6-4f9a-b030-18200eab8047"
      }
    },
    {
      "id": "e844fd83-1094-4571-a425-9c978bdb99a5",
      "note": [
        {
          "text": "Confugo natus vulariter."
        }
      ],
      "resourceType": "Condition",
      "subject": {
        "reference": "Patient/c855ef0e-73bc-43f8-ac12-51b54bc5de90"
      }
    },
    {
      "id": "322196ce-a384-4df8-8b29-80f35b3a33d3",
      "note": [
        {
          "text": "Tergo voluptas torqueo cur blandior."
        }
      ],
      "resourceType": "Condition",
      "subject": {
        "reference": "Patient/5065cc07-d54c-4b30-b430-447a7200a213"
      }
    },
    {
      "id": "a50c4292-0694-4cf4-872c-185d7347d383",
      "note": [
        {
          "text": "Acer cotidie adulescens nihil arceo."
        }
      ],
      "resourceType": "Condition",
      "subject": {
        "reference": "Patient/16479dc7-2202-4cb8-8b44-501ade34c930"
      }
    }
  ]
}